<?xml version="1.0" encoding="utf-8" ?>
<Bundle xmlns="http://hl7.org/fhir">
  <id value="team-registration-RESTful-example"/>
  <type value="transaction"/>
  <!--************************医生团队注册******************************-->
  <entry>
    <resource>
      <Task xmlns="http://hl7.org/fhir">
        <id value="TeamRegistration-example"/>
        <!-- 0..1 canonical(ActivityDefinition) 关联ActivityDefinition -->
        <instantiatesCanonical value="http://fhir.scwjxx.cn/Sichuan/ActivityDefinition/ad-team-registration"/>
        <!-- 1..1 状态 draft | requested | received | accepted | + -->
        <status value="requested"/>

        <!-- 1..1 目的 unknown | proposal | plan | order | original-order | reflex-order | filler-order | instance-order | option -->
        <intent value="proposal"/>

        <!-- 0..1 CodeableConcept 事件类型 -->
        <businessStatus>
          <coding>
            <!-- 0..1 事件类型 CodeSystem url  -->
            <system value="http://fhir.scwjxx.cn/Sichuan/CodeSystem/bussiness-event-code"/>
            <!-- 0..1 事件类型代码-->
            <code value="C02001"/>
            <!-- 0..1 事件类型名称 -->
            <display value="医生团队注册"/>
          </coding>
        </businessStatus>

        <!-- 0..1 CodeableConcept Task Type 任务类型-->
        <code>
          <coding>
            <!-- 0..1 任务类型 CodeSystem url  -->
            <system value="http://hl7.org/fhir/CodeSystem/task-code"/>
            <!-- 0..1 任务类型代码-->
            <code value="approve"/>
            <!-- 0..1 任务类型名称 -->
            <display value="Activate/approve the focal resource"/>
          </coding>
        </code>
        <!-- 0..1 任务描述 -->
        <description value="多名医生通过注册组成可签约的家庭医生团队，并且注册该团队的信息。"/>
        <!-- 0..1 Reference(Any) 关联该任务正在处理的资源 -->
        <focus>
          <reference value="CareTeam/CareTeam-example"/>
        </focus>
        <!-- ?? 0..1 任务创建日期 -->
        <authoredOn value="2019-02-10T13:00:00Z"/>
        <!-- ?? 0..1 最后更新日期 -->
        <lastModified value="2019-02-10T13:00:00Z"/>
        <!-- 0..1 任务创建者，关联医护人员 -->
        <requester>
          <reference value="Practitioner/Practitioner001-example"/>
        </requester>

        <!-- 0..* 任务备注 -->
        <note>
          <!-- 1..1 The annotation  - text content (as markdown) -->
          <text value="[markdown]"/>
        </note>
      </Task>
    </resource>
  </entry>
  <!--************************医生团队******************************-->
  <entry>
    <resource>
      <CareTeam xmlns="http://hl7.org/fhir">
        <id value="CareTeam-example"/>
        <meta>
          <profile value="http://fhir.scwjxx.cn/Sichuan/StructureDefinition/family-doctor-contract-team"/>
        </meta>


        <!-- 0..1 团队注册号 -->
        <identifier>
          <!--0..1 团队注册号NamingSystem uri-->
          <system value="http://fhir.scwjxx.cn/Sichuan/NamingSystem/team-registration-identifier"/>
          <!-- 0..1 团队注册号 -->
          <value value="123456782039388"/>
        </identifier>

        <!-- 0..1 团队状态  proposed | active | suspended | inactive | entered-in-error -->
        <status value="active"/>

        <!-- 0..* 团队类型 -->
        <category>
          <coding>
            <!-- 团队类型  CodeSystem  地址 -->
            <system value="http://fhir.scwjxx.cn/Sichuan/CodeSystem/CareTeam-type"/>
            <!-- 0..1 团队类型-->
            <code value="01"/>
            <!-- 0..1 团队类型名称 -->
            <display value="家庭医生团队"/>
          </coding>
        </category>
        <!-- 0..1 团队名称 -->
        <name value="家庭医生团队1"/>

        <!-- 0..1 Reference(Group) 服务范围 -->
        <subject>
          <!-- 0..1 Reference(Group) 关联范围组信息 -->
          <reference value="Group/ServiceArea-example"/>
        </subject>

        <!-- 0..1 团队存续时间 -->
        <period>
          <!--  0..1 团队创建时间 -->
          <start value="2020-06-06T09:12:25.612+00:00"/>

        </period>

        <!--  0..* 团队成员 -->
        <participant>
          <!-- 0..* 成员角色 -->
          <role>
            <coding>
              <!-- 成员角色  CodeSystem  地址 -->
              <system value="http://fhir.scwjxx.cn/Sichuan/CodeSystem/participant-role"/>
              <!-- 0..1 成员角色-->
              <code value="01"/>
              <!-- 0..1 成员角色名称 -->
              <display value="医生"/>
            </coding>
            <!-- 0..1 成员角色和该角色所履行职责的文字描述 -->
            <text value="张三"/>
          </role>
          <!-- 0..1 Reference(Practitioner）成员 -->
          <member>
            <!-- 0..1 Reference(Practitioner) 关联签约医生信息 -->
            <reference value="Practitioner/Practitioner001-example"/>
          </member>
          <!-- 0..1 Reference(Organization) 成员所属组织 -->
          <onBehalfOf>
            <!-- 0..1 Reference(Organization) 关联成员所属组织信息 -->
            <reference value="Organization/Hospital001-example"/>
          </onBehalfOf>
          <!-- 0..1 成员再团时间 -->
          <period>
            <!--  0..1 入团时间 -->
            <start value="2020-06-06T09:12:25.612+00:00"/>

          </period>
        </participant>

        <!--  0..* 团队成员 -->
        <participant>
          <!-- 0..* 成员角色 -->
          <role>
            <coding>
              <!-- 成员角色  CodeSystem  地址 -->
              <system value="http://fhir.scwjxx.cn/Sichuan/CodeSystem/participant-role"/>
              <!-- 0..1 成员角色-->
              <code value="01"/>
              <!-- 0..1 成员角色名称 -->
              <display value="医生"/>
            </coding>
            <!-- 0..1 成员角色和该角色所履行职责的文字描述 -->
            <text value="李四"/>
          </role>
          <!-- 0..1 Reference(Practitioner）成员 -->
          <member>
            <!-- 0..1 Reference(Practitioner) 关联签约医生信息 -->
            <reference value="Practitioner/Practitioner002-example"/>
          </member>
          <!-- 0..1 Reference(Organization) 成员所属组织 -->
          <onBehalfOf>
            <!-- 0..1 Reference(Organization) 关联成员所属组织信息 -->
            <reference value="Organization/Hospital001-example"/>
          </onBehalfOf>
          <!-- 0..1 成员再团时间 -->
          <period>
            <!--  0..1 入团时间 -->
            <start value="2020-06-06T09:12:25.612+00:00"/>

          </period>
        </participant>



        <!-- 0..* Reference(Organization) 创建机构 -->
        <managingOrganization>
          <!-- 0..1 Reference(Organization) 关联机构信息 -->
          <reference value="Organization/Hospital001-example"/>
        </managingOrganization>

        <!-- 0..1 联系电话 -->
        <telecom>
          <!--  0..1 联系方式类型 phone | fax | email | pager | url | sms | other -->
          <system value="phone"/>
          <!-- 0..1 联系电话 -->
          <value value="13308012373"/>
        </telecom>
        <!-- 0..1 联系地址 -->
        <telecom>
          <!--  0..1 联系方式类型 phone | fax | email | pager | url | sms | other -->
          <system value="other"/>
          <!-- 0..1 联系地址 -->
          <value value="XX市XX县XXXXX路XXX号"/>
        </telecom>

        <!--0..1 团队介绍 -->
        <extension url="http://FHIR.PRESS/StructureDefinition/brief-Introduction">
          <valueString value="团队介绍信息XXXXXXXXXXXXX"/>
        </extension>
      </CareTeam>
    </resource>
  </entry>

  <!--************************医院信息******************************-->
  <entry>
    <resource>
      <Organization xmlns="http://hl7.org/fhir">
        <id value="Hospital001-example"/>
        <meta>
          <profile value="http://fhir.scwjxx.cn/Sichuan/StructureDefinition/Hospital"/>
        </meta>
        <!--0..1 医院编号-->
        <identifier>
          <!--0..1 医院编号 NamingSystem uri-->
          <system value="https://www.cods.org.cn"/>
          <!-- 0..1 医院编号 -->
          <value value="ABC0000001"/>
        </identifier>
        <!-- 0..1 是否可用 -->
        <active value="true"/>

        <!-- 0..1 组织机构层级种类（固定为医院） -->
        <type>
          <coding>
            <!--组织机构层级种类 CodeSystem地址-->
            <system value="http://fhir.scwjxx.cn/Sichuan/CodeSystem/hierarchy-kind"/>
            <!-- 0..1 组织机构层级种类代码-->
            <code value="A100"/>
            <!-- 0..1 组织机构层级种类 -->
            <display value="综合医院"/>
          </coding>
        </type>
        <!-- 0..1 卫生机构(组织)类别 WS 218-2002， -->
        <type>
          <coding>
            <!--卫生机构(组织)类别 CodeSystem地址-->
            <system value="http://fhir.scwjxx.cn/Sichuan/CodeSystem/health-institution-category"/>
            <!-- 0..1 卫生机构(组织)类别代码-->
            <code value="2"/>
            <!-- 0..1 卫生机构(组织)类别 -->
            <display value="医院"/>
          </coding>
        </type>
        <!-- 0..1 组织机构类型 GB/T 20091-2006-->
        <type>
          <coding>
            <!--组织机构类型 CodeSystem地址-->
            <system value="http://fhir.scwjxx.cn/Sichuan/CodeSystem/Classification-for-organizations"/>
            <!-- 0..1 组织机构类型代码-->
            <code value="5"/>
            <!-- 0..1 组织机构类型 -->
            <display value="事业单位"/>
          </coding>
        </type>
        <!--0..1 地址-->
        <address>
          <!-- 0..1 地址的完整描述 -->
          <text value="四川省成都市高新区XXXXXX路18号"/>
        </address>
        <!--  0..1 医院名称 -->
        <name value="成都市XXXXX人民医院"/>
        <!-- 0..* 医院别名 -->
        <alias value="成都XX医院"/>
        <!--  0..1 联系电话 -->
        <telecom>
          <!--  0..1 类型 phone | fax | email | pager | url | sms | other -->
          <system value="phone"/>
          <!-- 0..1 电话号码 -->
          <value value="13309876352"/>
        </telecom>
        <!--  0..1 电子邮箱 -->
        <telecom>
          <!--  0..1 类型 phone | fax | email | pager | url | sms | other -->
          <system value="email"/>
          <!-- 0..1 电子邮箱 -->
          <value value="cdyyy@qq.com"/>
        </telecom>
        <!--  0..1 官方网页 -->
        <telecom>
          <!--  0..1 类型 phone | fax | email | pager | url | sms | other -->
          <system value="url"/>
          <!-- 0..1 官方网页 -->
          <value value="http://www.cdzxy.com/"/>
        </telecom>
        <!--0..1 图片 -->
        <extension url="http://fhir.scwjxx.cn/Sichuan/StructureDefinition/organization-picture">
          <!--0..1 logo图片 -->
          <extension url="logo">
            <ValueAttachment>
              <!-- 0..1 图片url -->
              <url value="http://upload.cdzxy.com/2020/0703/thumb_309_232_20200703094539230.jpg"/>
              <!-- 0..1 图片标题 -->
              <title value="医院logo"/>
            </ValueAttachment>
          </extension>
          <!--0..* 其他图片 -->
          <extension url="images">
            <ValueAttachment>
              <!-- 0..1 图片url -->
              <url value="http://upload.cdzxy.com/2020/0703/thumb_309_232_20200703094739309.jpg"/>
              <!-- 0..1 图片标题 -->
              <title value="医院实景图1"/>
            </ValueAttachment>
          </extension>
          <extension url="images">
            <ValueAttachment>
              <!-- 0..1 图片url -->
              <url value="http://upload.cdzxy.com/2017/0724/20170724063817937.jpg"/>
              <!-- 0..1 图片标题 -->
              <title value="医院实景图2"/>
            </ValueAttachment>
          </extension>
        </extension>

        <!--医院简介 -->
        <extension url="http://fhir.scwjxx.cn/Sichuan/StructureDefinition/BriefIntroduction">
          <!--医院简介 -->
          <valueString value="XXXXXXXX医院血液科针对【血小板减少】、【血小板增多】、【过敏性紫癜】、【贫血】等病提供专业治疗方案。"/>
        </extension>
      </Organization>
    </resource>
  </entry>

  <!--************************医护人员信息（张三）******************************-->
  <entry>
    <resource>
      <Practitioner xmlns="http://hl7.org/fhir">
        <id value="Practitioner001-example"/>
        <meta>
          <profile value="http://fhir.scwjxx.cn/Sichuan/StructureDefinition/Practitioner"/>
        </meta>
        <!--1..* 身份证件号 -->
        <identifier>
          <!--证件类型-->
          <type>
            <coding>
              <!-- 证件类型CodeSystem  地址 -->
              <system value="http://fhir.scwjxx.cn/Sichuan/CodeSystem/identity-document-type"/>
              <!-- 0..1 证件类别编码 -->
              <code value="01"/>
              <!-- 0..1 证件类别名称 -->
              <display value="身份证"/>
            </coding>
          </type>
          <!--0..1 身份证件号码NamingSystem uri-->
          <system value="http://fhir.scwjxx.cn/Sichuan/NamingSystem/identityDocument"/>
          <!-- 0..1 身份证件号码 -->
          <value value="511002198609021982"/>
        </identifier>
        <active value="true"/>
        <!-- 0..* 姓名 -->
        <name>
          <!-- 0..1 全名 -->
          <text value="张三"/>
        </name>
        <telecom>
          <!--  0..1 类型 phone | fax | email | pager | url | sms | other -->
          <system value="phone"/>
          <!-- 0..1 电话号码 -->
          <value value="13309092736"/>
        </telecom>
        <!--  0..1 电子邮箱 -->
        <telecom>
          <!--  0..1 类型 phone | fax | email | pager | url | sms | other -->
          <system value="email"/>
          <!-- 0..1 电子邮箱 -->
          <value value="263736484@qq.com"/>
        </telecom>
        <!-- 0..* 地址-->
        <address>
          <!-- 0..1 地址的完整描述 -->
          <text value="成都市XXX区XXX小区XXXX号"/>
        </address>

        <!-- 0..1 所学专业代码 GB/T16835-1997-->
        <qualification>
          <!--0..1  所学专业代码 -->
          <code>
            <coding>
              <!-- 所学专业代码  CodeSystem  地址 -->
              <system value="http://fhir.scwjxx.cn/Sichuan/CodeSystem/Codeofnormalandshort-cyclespeciality"/>
              <!-- 0..1 所学专业代码 -->
              <code value="[code]"/>
              <!-- 0..1 所学专业名称 -->
              <display value="[string]"/>
            </coding>
          </code>
        </qualification>
        <!-- 0..1 专业技术职务代码 GB/T8561-2001-->
        <qualification>
          <!--0..1  专业技术职务代码 -->
          <code>
            <coding>
              <!-- 专业技术职务代码  CodeSystem  地址 -->
              <system value="http://fhir.scwjxx.cn/Sichuan/CodeSystem/Code-of-professional-technical-position"/>
              <!-- 0..1 专业技术职务代码 -->
              <code value="[code]"/>
              <!-- 0..1专业技术职务名称 -->
              <display value="[string]"/>
            </coding>
          </code>
        </qualification>
        <!-- 0..1 所学专业 -->
        <qualification>
          <!--0..1  所学专业代码 -->
          <code>
            <coding>
              <!--所学专业代码  CodeSystem  地址 -->
              <system value="http://fhir.scwjxx.cn/Sichuan/CodeSystem/Codeofnormalandshort-cyclespeciality"/>
              <!-- 0..1 所学专业代码 -->
              <code value="[code]"/>
              <!-- 0..1 所学专业名称 -->
              <display value="[string]"/>
            </coding>
          </code>
        </qualification>
        <!-- 0..1 学历（最高学历参见 值域的属性） -->
        <qualification>
          <!--0..1  证书编码 -->
          <identifier>
            <!-- 一级学科代码-->
            <type>
              <coding>
                <!-- 一级学科代码CodeSystem  地址 (GB/T13745-92)-->
                <system value="http://fhir.scwjxx.cn/Sichuan/CodeSystem/Classification-of-disciplines"/>
                <!-- 0..1 一级学科代码编码 -->
                <code value="[code]"/>
                <!-- 0..1 一级学科代码名称 -->
                <display value="[string]"/>
              </coding>
            </type>
            <!--0..1 学历证书编码  NamingSystem uri-->
            <system value="http://SichuanMedicalCommunity.FHIR.PRESS/NamingSystem/Classification-of-disciplines-code"/>
            <!-- 0..1 证书编码 -->
            <value value="[string]"/>
          </identifier>
          <!--0..1  证书类别 -->
          <code>
            <coding>
              <!-- 学历证书类别  CodeSystem  地址 GB/T 4658-2006-->
              <system value="http://fhir.scwjxx.cn/Sichuan/CodeSystem/record-of-formal-schooling"/>
              <!-- 0..1 学历证书编码 -->
              <code value="[code]"/>
              <!-- 0..1 学历证书名称 -->
              <display value="[string]"/>
            </coding>
          </code>
        </qualification>
        <!-- 0..1 学位（最高学位参见 值域的属性） -->
        <qualification>
          <!--0..1  证书类别 -->
          <code>
            <coding>
              <!-- 学位证书类别  CodeSystem  地址 GB/T 6864-2003-->
              <system value="http://fhir.scwjxx.cn/Sichuan/CodeSystem/degree-of-PRC"/>
              <!-- 0..1 学位证书编码 -->
              <code value="[code]"/>
              <!-- 0..1 学位证书名称 -->
              <display value="[string]"/>
            </coding>
          </code>
        </qualification>
        <!-- 0..1 执业证书（医生） -->
        <qualification>
          <!--0..1  证书编码 -->
          <identifier>
            <!--0..1 医师/卫生监督员执业证书编码  NamingSystem uri-->
            <system value="http://SichuanMedicalCommunity.FHIR.PRESS/NamingSystem/Code-of-Practice-Certificate"/>
            <!-- 0..1 医师/卫生监督员执业证书编码/注册护士执业证书编码 -->
            <value value="[string]"/>
          </identifier>
          <!--0..1  证书类别 -->
          <code>
            <coding>
              <!-- 证书执业类别代码  CodeSystem  地址 -->
              <system value="http://fhir.scwjxx.cn/Sichuan/CodeSystem/practitioner-practice-type"/>
              <!-- 0..1 医师执业类别代码编码 -->
              <code value="[code]"/>
              <!-- 0..1 医师执业类别代码名称 -->
              <display value="[string]"/>
            </coding>
          </code>
        </qualification>

        <!-- 0..1 生理性别 -->
        <gender>
          <extension url="http://fhir.scwjxx.cn/Sichuan/StructureDefinition/sexual-distinction-of-human">
            <valueCoding>
              <!-- 0..1 生理性别 CodeSystem url  地址-->
              <system value="http://fhir.scwjxx.cn/Sichuan/CodeSystem/physiological-gender"/>
              <!-- 0..1 生理性别代码-->
              <code value="01"/>
              <!-- 0..1 生理性别说明 -->
              <display value="男"/>
            </valueCoding>
          </extension>
        </gender>
        <!-- 0..1 出生日期 -->
        <birthDate value="1980-01-01"/>
        <!-- 0..* 照片 -->
        <photo>
          <!-- 0..1 uri地址 -->
          <url value="http://www.cctrry.com/images/image1.png"/>
          <!-- 0..1 标题 -->
          <title value="头像"/>
        </photo>
        <photo>
          <!-- 0..1 uri地址 -->
          <url value="http://www.cctrry.com/images/image2.png"/>
          <!-- 0..1 标题 -->
          <title value="寸照"/>
        </photo>
        <extension url="http://fhir.scwjxx.cn/Sichuan/StructureDefinition/BriefIntroduction">
          <valueString value="擅长运用中医、中西医结合治疗血小板减少、血小板增多等血液疾病独树一帜，她在多年临床发现治疗血液病单纯靠西药激素治疗并不理想，立志另辟蹊径潜心进修中医，对多种疑难病症有着丰富的临床诊疗经验。"/>
        </extension>
        <!-- 0..1 国籍   GB/T 2659 世界各国和地区名称代码-->
        <extension url="http://fhir.scwjxx.cn/Sichuan/StructureDefinition/Nationality">
          <valueCoding>
            <!-- 0..1 世界各国和地区名称代码 CodeSystem url  地址  -->
            <system value="http://fhir.scwjxx.cn/Sichuan/CodeSystem/countries-and-regions"/>
            <!-- 0..1 世界各国和地区名称代码-->
            <code value="64"/>
            <!-- 0..1 世界各国和地区名称代码说明 -->
            <display value="中华人民共和国"/>
          </valueCoding>
        </extension>
        <!-- 0..1 民族  中华56个民族代码， GB 3304-->
        <extension url="http://fhir.scwjxx.cn/Sichuan/StructureDefinition/ChineseEthnicity">
          <valueCoding>
            <!-- 0..1 民族类别 CodeSystem url  地址-->
            <system value="http://fhir.scwjxx.cn/Sichuan/CodeSystem/nationalites-of-PRC"/>
            <!-- 0..1 民族类别代码-->
            <code value="01"/>
            <!-- 0..1 民族类别说明 -->
            <display value="汉族"/>
          </valueCoding>
        </extension>
        <!-- 0..1 政治面貌， GB 4762-1984-->
        <extension url="http://fhir.scwjxx.cn/Sichuan/StructureDefinition/sexual-distinction-of-human">
          <extension url="orgnaztion">
            <valueCoding>
              <!-- 0..1 政治面貌 CodeSystem url  地址-->
              <system value="http://fhir.scwjxx.cn/Sichuan/CodeSystem/politic-affiliation"/>
              <!-- 0..1 政治面貌代码-->
              <code value="01"/>
              <!-- 0..1 政治面貌说明 -->
              <display value="群众"/>
            </valueCoding>
          </extension>
        </extension>
        <!-- 0..1 参加工作日期-->
        <extension url="http://fhir.scwjxx.cn/Sichuan/StructureDefinition/date-start-work">
          <valueDate value="2014-01-01"/>
        </extension>
        <!-- 0..1 是否多地点执业医师-->
        <extension url="http://fhir.scwjxx.cn/Sichuan/StructureDefinition/is-work-for-multi-org">
          <valueBoolean value="false"/>
        </extension>
      </Practitioner>
    </resource>
  </entry>

  <!--************************医护人员信息（李四）******************************-->
  <entry>
    <resource>
      <Practitioner xmlns="http://hl7.org/fhir">
        <id value="Practitioner002-example"/>
        <meta>
          <profile value="http://fhir.scwjxx.cn/Sichuan/StructureDefinition/Practitioner"/>
        </meta>
        <!--1..* 身份证件号 -->
        <identifier>
          <!--证件类型-->
          <type>
            <coding>
              <!-- 证件类型CodeSystem  地址 -->
              <system value="http://fhir.scwjxx.cn/Sichuan/CodeSystem/identity-document-type"/>
              <!-- 0..1 证件类别编码 -->
              <code value="01"/>
              <!-- 0..1 证件类别名称 -->
              <display value="身份证"/>
            </coding>
          </type>
          <!--0..1 身份证件号码NamingSystem uri-->
          <system value="http://fhir.scwjxx.cn/Sichuan/NamingSystem/identityDocument"/>
          <!-- 0..1 身份证件号码 -->
          <value value="511002198609021982"/>
        </identifier>
        <active value="true"/>
        <!-- 0..* 姓名 -->
        <name>
          <!-- 0..1 全名 -->
          <text value="李四"/>
        </name>
        <telecom>
          <!--  0..1 类型 phone | fax | email | pager | url | sms | other -->
          <system value="phone"/>
          <!-- 0..1 电话号码 -->
          <value value="13309092736"/>
        </telecom>
        <!--  0..1 电子邮箱 -->
        <telecom>
          <!--  0..1 类型 phone | fax | email | pager | url | sms | other -->
          <system value="email"/>
          <!-- 0..1 电子邮箱 -->
          <value value="263736484@qq.com"/>
        </telecom>
        <!-- 0..* 地址-->
        <address>
          <!-- 0..1 地址的完整描述 -->
          <text value="成都市XXX区XXX小区XXXX号"/>
        </address>

        <!-- 0..1 所学专业代码 GB/T16835-1997-->
        <qualification>
          <!--0..1  所学专业代码 -->
          <code>
            <coding>
              <!-- 所学专业代码  CodeSystem  地址 -->
              <system value="http://fhir.scwjxx.cn/Sichuan/CodeSystem/Codeofnormalandshort-cyclespeciality"/>
              <!-- 0..1 所学专业代码 -->
              <code value="[code]"/>
              <!-- 0..1 所学专业名称 -->
              <display value="[string]"/>
            </coding>
          </code>
        </qualification>
        <!-- 0..1 专业技术职务代码 GB/T8561-2001-->
        <qualification>
          <!--0..1  专业技术职务代码 -->
          <code>
            <coding>
              <!-- 专业技术职务代码  CodeSystem  地址 -->
              <system value="http://fhir.scwjxx.cn/Sichuan/CodeSystem/Code-of-professional-technical-position"/>
              <!-- 0..1 专业技术职务代码 -->
              <code value="[code]"/>
              <!-- 0..1专业技术职务名称 -->
              <display value="[string]"/>
            </coding>
          </code>
        </qualification>
        <!-- 0..1 所学专业 -->
        <qualification>
          <!--0..1  所学专业代码 -->
          <code>
            <coding>
              <!--所学专业代码  CodeSystem  地址 -->
              <system value="http://fhir.scwjxx.cn/Sichuan/CodeSystem/Codeofnormalandshort-cyclespeciality"/>
              <!-- 0..1 所学专业代码 -->
              <code value="[code]"/>
              <!-- 0..1 所学专业名称 -->
              <display value="[string]"/>
            </coding>
          </code>
        </qualification>
        <!-- 0..1 学历（最高学历参见 值域的属性） -->
        <qualification>
          <!--0..1  证书编码 -->
          <identifier>
            <!-- 一级学科代码-->
            <type>
              <coding>
                <!-- 一级学科代码CodeSystem  地址 (GB/T13745-92)-->
                <system value="http://fhir.scwjxx.cn/Sichuan/CodeSystem/Classification-of-disciplines"/>
                <!-- 0..1 一级学科代码编码 -->
                <code value="[code]"/>
                <!-- 0..1 一级学科代码名称 -->
                <display value="[string]"/>
              </coding>
            </type>
            <!--0..1 学历证书编码  NamingSystem uri-->
            <system value="http://SichuanMedicalCommunity.FHIR.PRESS/NamingSystem/Classification-of-disciplines-code"/>
            <!-- 0..1 证书编码 -->
            <value value="[string]"/>
          </identifier>
          <!--0..1  证书类别 -->
          <code>
            <coding>
              <!-- 学历证书类别  CodeSystem  地址 GB/T 4658-2006-->
              <system value="http://fhir.scwjxx.cn/Sichuan/CodeSystem/record-of-formal-schooling"/>
              <!-- 0..1 学历证书编码 -->
              <code value="[code]"/>
              <!-- 0..1 学历证书名称 -->
              <display value="[string]"/>
            </coding>
          </code>
        </qualification>
        <!-- 0..1 学位（最高学位参见 值域的属性） -->
        <qualification>
          <!--0..1  证书类别 -->
          <code>
            <coding>
              <!-- 学位证书类别  CodeSystem  地址 GB/T 6864-2003-->
              <system value="http://fhir.scwjxx.cn/Sichuan/CodeSystem/degree-of-PRC"/>
              <!-- 0..1 学位证书编码 -->
              <code value="[code]"/>
              <!-- 0..1 学位证书名称 -->
              <display value="[string]"/>
            </coding>
          </code>
        </qualification>
        <!-- 0..1 执业证书（医生） -->
        <qualification>
          <!--0..1  证书编码 -->
          <identifier>
            <!--0..1 医师/卫生监督员执业证书编码  NamingSystem uri-->
            <system value="http://SichuanMedicalCommunity.FHIR.PRESS/NamingSystem/Code-of-Practice-Certificate"/>
            <!-- 0..1 医师/卫生监督员执业证书编码/注册护士执业证书编码 -->
            <value value="[string]"/>
          </identifier>
          <!--0..1  证书类别 -->
          <code>
            <coding>
              <!-- 证书执业类别代码  CodeSystem  地址 -->
              <system value="http://fhir.scwjxx.cn/Sichuan/CodeSystem/practitioner-practice-type"/>
              <!-- 0..1 医师执业类别代码编码 -->
              <code value="[code]"/>
              <!-- 0..1 医师执业类别代码名称 -->
              <display value="[string]"/>
            </coding>
          </code>
        </qualification>

        <!-- 0..1 生理性别 -->
        <gender>
          <extension url="http://fhir.scwjxx.cn/Sichuan/StructureDefinition/sexual-distinction-of-human">
            <valueCoding>
              <!-- 0..1 生理性别 CodeSystem url  地址-->
              <system value="http://fhir.scwjxx.cn/Sichuan/CodeSystem/physiological-gender"/>
              <!-- 0..1 生理性别代码-->
              <code value="01"/>
              <!-- 0..1 生理性别说明 -->
              <display value="男"/>
            </valueCoding>
          </extension>
        </gender>
        <!-- 0..1 出生日期 -->
        <birthDate value="1980-01-01"/>
        <!-- 0..* 照片 -->
        <photo>
          <!-- 0..1 uri地址 -->
          <url value="http://www.cctrry.com/images/image1.png"/>
          <!-- 0..1 标题 -->
          <title value="头像"/>
        </photo>
        <photo>
          <!-- 0..1 uri地址 -->
          <url value="http://www.cctrry.com/images/image2.png"/>
          <!-- 0..1 标题 -->
          <title value="寸照"/>
        </photo>
        <extension url="http://fhir.scwjxx.cn/Sichuan/StructureDefinition/BriefIntroduction">
          <valueString value="擅长运用中医、中西医结合治疗血小板减少、血小板增多等血液疾病独树一帜，她在多年临床发现治疗血液病单纯靠西药激素治疗并不理想，立志另辟蹊径潜心进修中医，对多种疑难病症有着丰富的临床诊疗经验。"/>
        </extension>
        <!-- 0..1 国籍   GB/T 2659 世界各国和地区名称代码-->
        <extension url="http://fhir.scwjxx.cn/Sichuan/StructureDefinition/Nationality">
          <valueCoding>
            <!-- 0..1 世界各国和地区名称代码 CodeSystem url  地址  -->
            <system value="http://fhir.scwjxx.cn/Sichuan/CodeSystem/countries-and-regions"/>
            <!-- 0..1 世界各国和地区名称代码-->
            <code value="64"/>
            <!-- 0..1 世界各国和地区名称代码说明 -->
            <display value="中华人民共和国"/>
          </valueCoding>
        </extension>
        <!-- 0..1 民族  中华56个民族代码， GB 3304-->
        <extension url="http://fhir.scwjxx.cn/Sichuan/StructureDefinition/ChineseEthnicity">
          <valueCoding>
            <!-- 0..1 民族类别 CodeSystem url  地址-->
            <system value="http://fhir.scwjxx.cn/Sichuan/CodeSystem/nationalites-of-PRC"/>
            <!-- 0..1 民族类别代码-->
            <code value="01"/>
            <!-- 0..1 民族类别说明 -->
            <display value="汉族"/>
          </valueCoding>
        </extension>
        <!-- 0..1 政治面貌， GB 4762-1984-->
        <extension url="http://fhir.scwjxx.cn/Sichuan/StructureDefinition/sexual-distinction-of-human">
          <extension url="orgnaztion">
            <valueCoding>
              <!-- 0..1 政治面貌 CodeSystem url  地址-->
              <system value="http://fhir.scwjxx.cn/Sichuan/CodeSystem/politic-affiliation"/>
              <!-- 0..1 政治面貌代码-->
              <code value="01"/>
              <!-- 0..1 政治面貌说明 -->
              <display value="群众"/>
            </valueCoding>
          </extension>
        </extension>
        <!-- 0..1 参加工作日期-->
        <extension url="http://fhir.scwjxx.cn/Sichuan/StructureDefinition/date-start-work">
          <valueDate value="2014-01-01"/>
        </extension>
        <!-- 0..1 是否多地点执业医师-->
        <extension url="http://fhir.scwjxx.cn/Sichuan/StructureDefinition/is-work-for-multi-org">
          <valueBoolean value="false"/>
        </extension>
      </Practitioner>
    </resource>
  </entry>

  <!--************************服务范围******************************-->
  <entry>
    <resource>
      <Group xmlns="http://hl7.org/fhir">
        <id value="ServiceArea-example"/>

        <meta>
          <profile value="http://fhir.scwjxx.cn/Sichuan/StructureDefinition/service-area"/>
        </meta>

        <!-- 1..1 分组类型  person | animal | practitioner | device | medication | substance -->
        <type value="person"/>
        <!--  1..1 实际的或者描述性的 -->
        <actual value="true"/>

        <!-- 0..1 分组名称 -->
        <name value="服务成都地区"/>

        <!-- 0..* 分组成员所属特性（描述地域范围，用行政区划编码描述） -->
        <characteristic>
          <!-- 1..1 描述特性划分名称 -->
          <code>
            <coding>
              <!-- 0..1 描述特性划分名称 -->
              <display value="行政区划"/>
            </coding>
          </code>
          <!-- 1..1 行政区划编码 -->
          <valueCodeableConcept>
            <coding>
              <!-- 0..1 行政区划代码 CodeSystem url  地址-->
              <system value="http://fhir.scwjxx.cn/Sichuan/CodeSystem/administrative-divisions"/>
              <!-- 0..1 行政区划代码-->
              <code value="510100"/>
              <!-- 0..1 行政区划名称 -->
              <display value="成都市"/>
            </coding>
          </valueCodeableConcept>
          <!-- 1..1 包含或者排除 -->
          <exclude value="true"/>

        </characteristic>

      </Group>
    </resource>
  </entry>









</Bundle>


